Folder: robowski-maps/robowski/uv_vis_absorption_spectroscopy/prussian_blue_analogs_analysis_data_and_code/result

Note: robowski/uv_vis_absorption_spectroscopy/prussian_blue_analogs_analysis_data_and_code/README.md
# Description of code and data files for the Prussian Blue Analogs (PBA) analysis

## ğŸ“ `data/` â€” Experimental data

- Table `PBA_reference_calibration_spectra.csv`  
  Contains:
  - Spectra wavelength in nanometers (column `Wavelength`).
  - Solvent background spectrum (column `bkg`: ).
  - Calibration spectra for 3 references (each at 5 concentrations). Column names refer to the reference type and their 
concentration, for example, `ref2_c2` column contains the calibration spectrum for reference substance #2 of its second concentration
  - (see concentration details in the script).

- `PBA_sample_spectra.csv`  
  Contents:
  - Spectra wavelength in nanometers (Column `Wavelength`).
  - Each column corresponds spectrum to a sample, column name is a unique index assigned to each sample (from 0 to 755).

---

## ğŸ“ `result/` â€” Results of the analysis

- Table `Dataset_PBA_composition.csv`  
  Contents:
  - Sample index (column `index`).
  - Ratio of different metals in PBA used for the sample. Column `Mn` to column `Cu` stand for the ratio on metal 
  B site, which add up to 1; column `M1-Fe` and column `M1-Co` stand for the ratio on metal A site, which also add up to 1.

- Table `Spectra_unmixing_result.csv`  
  Contents:
  - Column `Index` is the sample's index.
  - Column `ref1` to column `ref3`: fitted concentration values for the 3 reference compounds for each sample.
  - Column `yield_epox` and column `yield_alde`: yield of styrene oxide and benzaldehyde for each sample.

- `*.png` images  
  - Each image shows the comparison between experimental and fitted UV spectra.
  - Each image includes results for 20 samples, sorted by sample index.

---

## ğŸ“œ `UV_spectra_unmixing_PBA.ipynb` â€” Jupyter Notebook used for the analysis

This Jupyter Notebook demonstrates the full workflow of:
- Spectra preprocessing
- SVR-based spectral unmixing
- Plotting fits and residuals
- Exporting and interpreting the results

File: Spectra_unmixing_result.csv
,ref1,ref2,ref3,yield_epox,yield_alde
0,0.149718,0.082012,0.0,35.3912,0.0
4,0.202242,0.0401123,0.00286138,16.358,1.16688
8,0.0987665,0.102728,0.0062716,49.4441,3.01859
12,0.0870318,0.102443,0.00715958,52.0982,3.64106
16,0.106314,0.104336,0.0025622,48.9353,1.20171
20,0.171938,0.0745072,0.00617497,29.4937,2.44437
24,0.198341,0.0373364,0.00848792,15.2914,3.4763
28,0.103747,0.0931392,0.00215749,46.7934,1.08393
32,0.153473,0.0674276,0.00580401,29.7426,2.56017
36,0.0895113,0.0974279,0.0079929,49.9804,4.10035
40,0.0739658,0.0984298,0.00268482,56.2198,1.53348
44,0.154726,0.0591905,0.00784619,26.691,3.53811
48,0.228851,0.0164869,0.00916163,6.47817,3.59986
52,0.112802,0.0812539,0.00596252,40.6232,2.98098
56,0.0719585,0.0875395,0.00378418,53.6124,2.31757
60,0.201922,0.0157535,0.00864054,6.96083,3.8179
64,0.21412,0.0320751,0.00443837,12.7976,1.77086
68,0.0854164,0.0966807,0.00262981,52.3371,1.42362
72,0.142015,0.0702106,0.00353035,32.5417,1.63627
76,0.10205,0.103209,0.00270094,49.6292,1.29878
80,0.14826,0.076599,0.0037589,33.5052,1.64418
84,0.0938366,0.105574,0.00231369,52.3359,1.14696
88,0.230214,0.0236329,0.00640697,9.08071,2.46181
92,0.133021,0.0732377,0.0039542,34.8398,1.88104
96,0.0924214,0.11596,0.00336734,54.763,1.59025
100,0.161278,0.070506,0.00371628,29.9388,1.57804
104,0.087944,0.107269,0.00275464,54.1851,1.39146
108,0.193889,0.0241546,0.00630726,10.7664,2.81134
112,0.11848,0.0503332,0.000914347,29.6553,0.538715
116,0.163459,0.026583,0.000490962,13.9519,0.257678
120,0.210688,0.0111028,0.00257482,4.94852,1.1476
124,0.20283,0.0173689,0.0,7.88782,0.0
128,0.0826693,0.072161,0.010292,43.7015,6.23296
132,0.0531031,0.0902591,0.00808546,59.5975,5.33878
136,0.158672,0.0660333,0.0159099,27.4435,6.61217
140,0.109056,0.0871389,0.0132619,41.6024,6.33157
144,0.0650455,0.101675,0.0126516,56.6838,7.05329
148,0.080616,0.106755,0.0119279,53.5652,5.98494
152,0.0669296,0.104297,0.00320499,59.7926,1.83739
156,0.0600441,0.104291,0.00738277,60.734,4.29936
160,0.119316,0.0866539,0.0119283,39.7681,5.47424
164,0.16215,0.0658944,0.0154803,27.0586,6.35679
168,0.180665,0.0600806,0.0127981,23.6964,5.04769
172,0.102289,0.106291,0.0152222,47.4932,6.80163
176,0.206391,0.0551332,0.0114358,20.1983,4.18956
180,0.164537,0.0407088,0.0115347,18.7788,5.3209
184,0.0961959,0.0746883,0.0124428,40.7405,6.78721
188,0.0589414,0.10419,0.00568745,61.7171,3.36896
192,0.0692055,0.104091,0.00392099,58.7363,2.21253
196,0.124413,0.0832078,0.00979981,38.2705,4.50731
200,0.192693,0.0458546,0.00925021,18.5048,3.73297
204,0.0831298,0.107321,0.00478578,54.9697,2.45127
208,0.0928171,0.0977222,0.00944991,48.8637,4.72521
212,0.143219,0.0746762,0.011183,32.5986,4.88175
216,0.178178,0.0502939,0.00741763,21.321,3.14454
220,0.197037,0.0432584,0.0128324,17.0896,5.06955
224,0.068474,0.126565,0.00629412,62.8634,3.12623
228,0.0989287,0.0987306,0.00861182,47.8645,4.175
232,0.147579,0.0752549,0.00906205,32.4521,3.90781
236,0.130496,0.0364528,0.0097096,20.6347,5.49627
240,0.0514066,0.0895259,0.00546546,61.1524,3.73329
244,0.139245,0.0406927,0.0112768,21.2812,5.89744
248,0.158874,0.0375681,0.0114626,18.0699,5.5134
252,0.0859015,0.104981,0.00782632,52.8315,3.93859
256,0.176457,0.0613377,0.01332,24.4262,5.30436
260,0.0803376,0.131774,0.00321148,61.1982,1.49147
264,0.0721655,0.141571,0.000139601,66.193,0.0652719
268,0.0681535,0.101196,0.00177749,59.1351,1.03869
272,0.138296,0.0846826,0.0143811,35.6769,6.05877
276,0.183971,0.0534978,0.0137427,21.2959,5.47058
280,0.109338,0.100341,0.011447,45.3773,5.17668
284,0.178471,0.0641432,0.0128222,25.1113,5.01972
288,0.10477,0.109696,0.00662901,49.6148,2.99827
292,0.0863717,0.150706,0.00111493,63.2707,0.468079
296,0.188362,0.0895354,0.0132358,30.7541,4.54629
300,0.201716,0.0796423,0.0142676,26.9403,4.82626
304,0.112815,0.141755,0.0100531,53.5688,3.79901
308,0.0748504,0.180941,0.00336434,69.8194,1.2982
312,0.234414,0.0651374,0.00946568,21.0789,3.06316
316,0.190446,0.0734511,0.013729,26.4568,4.94514
320,0.0973963,0.151053,0.00325511,60.0121,1.29323
324,0.0979273,0.156748,0.0102631,59.1639,3.87376
328,0.084165,0.13002,0.00949862,58.1268,4.24645
332,0.138919,0.0748758,0.0096154,33.5149,4.30392
336,0.079231,0.134584,0.00705748,60.933,3.19527
340,0.204677,0.0795638,0.0121503,26.8442,4.0994
344,0.105727,0.141631,0.0101312,55.0047,3.93461
348,0.0901925,0.139546,0.00725641,58.8815,3.06184
352,0.175174,0.121889,0.0142713,39.1505,4.58392
356,0.0837853,0.165064,0.00420454,65.2287,1.66152
360,0.152627,0.0427087,0.016892,20.124,7.95934
364,0.0896294,0.0924033,0.0146845,46.9727,7.46478
368,0.146998,0.0668859,0.0144118,29.2979,6.31275
372,0.174525,0.0427374,0.0137504,18.5,5.95223
376,0.188372,0.0431733,0.0134905,17.6192,5.50552
380,0.185978,0.0889895,0.00992566,31.2361,3.484
384,0.0753216,0.119729,0.0038298,60.2015,1.92568
388,0.220713,0.0564698,0.0163131,19.2404,5.5582
392,0.212907,0.0471971,0.010766,17.4242,3.97461
396,0.0870221,0.120263,0.00645534,56.2659,3.02018
400,0.158613,0.10174,0.00791857,37.9242,2.9517
404,0.101742,0.127423,0.0048577,54.449,2.07574
408,0.119346,0.124468,0.00775006,49.4778,3.08075
412,0.203675,0.0727086,0.0123958,25.1779,4.29249
416,0.222764,0.0767096,0.0135401,24.5068,4.32572
420,0.237939,0.0536254,0.00924449,17.827,3.07321
424,0.10974,0.123843,0.00508455,51.8894,2.13039
428,0.226592,0.0550394,0.0102282,18.8582,3.50448
432,0.221174,0.0645546,0.012394,21.6537,4.15736
436,0.100074,0.115868,0.00630903,52.134,2.8387
440,0.0707869,0.123036,0.0064969,61.4199,3.24326
444,0.096615,0.130803,0.0104312,54.9941,4.38563
448,0.145547,0.0725169,0.00617193,32.3395,2.75242
452,0.221658,0.059123,0.0105038,20.2973,3.60602
456,0.0989694,0.109066,0.000802611,52.2253,0.384321
460,0.111354,0.145937,0.00570773,55.4896,2.17025
464,0.198899,0.0478643,0.0127693,18.4425,4.92013
468,0.20453,0.0862502,0.0127565,28.4151,4.20261
472,0.212892,0.0390123,0.00803453,15.0082,3.09093
476,0.0856283,0.129657,0.0,60.2257,0.0
480,0.102212,0.119811,0.00110283,53.6967,0.494263
484,0.207957,0.064955,0.0063102,23.2629,2.25992
488,0.163409,0.0609886,0.0111613,25.891,4.7382
492,0.0702538,0.131161,0.00681401,62.9888,3.27237
496,0.217571,0.0545173,0.0113015,19.2376,3.98798
500,0.247599,0.0503954,0.0112414,16.2968,3.63523
504,0.0583483,0.113605,0.00484352,64.2574,2.73959
508,0.152068,0.0513535,0.0175358,23.2414,7.9363
512,0.154582,0.0712311,0.0180111,29.2141,7.3869
516,0.134018,0.0781689,0.0201898,33.6388,8.68838
520,0.157511,0.0674203,0.0184711,27.6991,7.58871
524,0.185662,0.0461675,0.0180395,18.4767,7.21958
528,0.176705,0.0642417,0.0199406,24.6243,7.64339
532,0.156181,0.0593858,0.02003,25.2066,8.50181
536,0.184736,0.0519076,0.0212125,20.1305,8.22651
540,0.0616745,0.124445,0.00879571,63.8457,4.51258
544,0.100727,0.111463,0.016052,48.8355,7.03291
548,0.177772,0.0628982,0.0199955,24.1298,7.67095
552,0.1545,0.0753275,0.0201669,30.1316,8.06694
556,0.0899525,0.122483,0.00968473,55.1426,4.36013
560,0.059125,0.10778,0.00287902,63.4806,1.6957
564,0.179192,0.0491215,0.0172706,20.002,7.03246
568,0.198565,0.0544691,0.0211339,19.867,7.70837
572,0.0710495,0.124079,0.00811586,61.0492,3.99316
576,0.079237,0.129735,0.00689941,60.0983,3.19607
580,0.0845976,0.1285,0.00957001,57.7093,4.29789
584,0.178373,0.0586027,0.019359,22.8618,7.5522
588,0.0818385,0.128317,0.0061391,59.3251,2.8383
592,0.161315,0.090347,0.017951,33.5098,6.65805
596,0.0822091,0.125078,0.0101965,57.5114,4.68842
600,0.0883317,0.129374,0.00986608,56.8497,4.33538
604,0.211237,0.0519873,0.018178,18.4744,6.45978
608,0.0775246,0.130393,0.00327723,61.7407,1.55176
612,0.1208,0.0833707,0.010386,38.8572,4.84068
616,0.0646826,0.101711,0.0130461,56.6826,7.27045
620,0.18147,0.0488846,0.0176998,19.7072,7.13548
624,0.122956,0.0586002,0.0156367,29.7172,7.92966
628,0.132009,0.0491863,0.0160646,24.9348,8.14389
632,0.15568,0.103319,0.00665227,38.8928,2.50413
636,0.190981,0.107081,0.00709261,35.0906,2.32427
640,0.239973,0.0641832,0.00507902,20.7555,1.64245
644,0.262112,0.0599088,0.000951347,18.5492,0.29456
648,0.143359,0.0393076,0.00157124,21.3352,0.852834
652,0.116961,0.118482,0.00707416,48.855,2.91697
656,0.129976,0.130917,0.00404422,49.4143,1.52648
660,0.153606,0.128708,0.00892187,44.1938,3.06345
664,0.269171,0.0651923,0.00382196,19.2771,1.13014
668,0.187978,0.0948069,0.00580778,32.8514,2.01245
672,0.241913,0.0698794,0.00524285,22.0415,1.65371
676,0.12168,0.159282,0.00089788,56.5111,0.318555
680,0.226117,0.0754627,0.00556176,24.5694,1.81081
684,0.194987,0.0861567,0.0094012,29.6534,3.23571
688,0.142124,0.128738,0.00885924,46.0237,3.16717
692,0.104956,0.154639,0.00509025,58.4239,1.92313
696,0.124691,0.135866,0.00791802,50.6065,2.94926
700,0.253475,0.0525593,0.00720851,16.7791,2.30125
704,0.256362,0.0669618,0.00612655,20.3253,1.85963
708,0.0969804,0.153087,0.0,61.2182,0.0
712,0.154331,0.13443,0.00592419,45.6181,2.01034
716,0.236235,0.067503,0.00559548,21.8221,1.80888
720,0.155403,0.115391,0.00661691,41.5956,2.38524
724,0.256808,0.055819,0.00711504,17.4575,2.22524
728,0.107183,0.175952,0.000985753,61.9286,0.346948
732,0.129036,0.150609,0.0032807,53.2327,1.15957
736,0.231315,0.0752265,0.0040046,24.224,1.28954
740,0.147524,0.0714322,0.00641354,31.6956,2.84579
744,0.0694554,0.109379,8.20572e-06,61.1595,0.00458822
748,0.193747,0.0654553,0.00383654,24.8843,1.45854
752,0.179232,0.0482371,0.0118031,20.16,4.93292
755,0.196479,0.057809,0.0114189,21.7567,4.29754